# repro call number: 0
# mode: 1
# signal: 2
# stimulus file: /extra/setup/oel/stimuli/receptorInfo/lmd_co200.dat
# carrier freq (kHz): 5
# stimulus length (msec): 1000
# pause between stimuli (msec): 700
# length of ramp (usec): 1000
# desired firing rate (Hz): 100
# standard deviation (dB): -1
# cut-off frequency (Hz): 200
# repetition number: 0
# duration (msec): 1000
# intensity (dB): 53.5938
7300
10700
16200
19900
23400
29000
35600
38700
42300
46000
49500
64600
78500
84600
89300
95100
98400
110300
120500
124400
130400
138200
144500
149100
161800
170900
175800
179600
186000
193200
208800
217600
221500
232600
241100
252600
259900
269000
273600
279100
293100
298600
314400
320400
325100
329400
335600
345500
352200
358500
373800
380000
387600
399400
407800
422800
431800
449300
455100
461000
466000
475600
481500
488400
501800
505200
511500
518500
528800
536700
541200
549800
555100
566700
583700
603500
611300
617900
622400
635200
643600
646500
653800
661800
686000
690100
694400
698900
703800
715400
729700
745800
750800
758800
774500
791100
797500
803300
809700
818700
822300
835300
842400
849300
853600
873000
878100
885300
892800
903300
915400
923500
930800
947700
951500
957300
963600
979800
992200
998700
1008500
1012200
1018600
1029100
1036700
1040600
1045700
1061300
1065700
1070900
1078600
1083900
1092300
1095900
1111600
1118000
1121800
1127100
1138100
1148700
1153300
1167500
1177800
1197300
1212600
1217900
1222600
1226300
1245000
1260500
1271800
1275500
1287700
1296500
1305100
1310500
1317300
1324100
1332400
1336300
1358500
1366000
1371600
1386700
1399700
1402900
1418000
1437300
1444800
1458600
1463200
1472400
1485100
1491300
1498400
1507600
1516800
1527500
1537500
1543600
1547300
1553700
1564700
1575000
1590400
1596600
1607700
1613000
1627000
1635300
1642000
1646500
1660800
1669600
1677000
1682600
1687400
1697600
1703100
1707000
1711300
1736100
1742100
1750200
1755400
1761700
1770100
1777600
1792600
1799600
1807900
1827200
1836400
1841900
1846700
1858300
1865100
1869400
1873600
1890900
1901700
1906700
1914200
1923300
1936200
1941700
1947700
1955400
1958300
1969300
1980800
2011300
2016600
2035000
2045400
2050800
2055900
2059100
2062100
2073900
2082100
2086900
2098500
2111400
2121300
2130800
2138700
2146500
2156500
2178400
2191300
2197200
2201700
2210700
2216800
2222400
2227200
2234100
2251300
2273300
2283500
2293800
2303200
2308700
2320100
2324600
2337200
2342600
2346100
2357600
2361700
2369300
2376300
2383300
2398000
2403100
2418600
2429500
2438500
2453600
2458900
2466700
2474000
2478200
2485800
2494500
2500600
2505300
2510600
2519300
2528900
2532500
2553300
2561700
2567600
2574700
2602100
2608900
2613100
2616700
2626000
2642400
2647400
2651200
2668300
2676500
2683900
2690000
2697200
2708500
2723700
2738000
2744300
2753100
2769000
2776000
2783600
2793900
2800400
2810800
2816800
2831600
2835500
2845800
2874000
2882000
2887700
2897100
2910700
2923000
2931500
2935400
2945200
2953900
2967100
2972000
2981100
2987500
2993300
3013300
3017300
3025500
3035600
3043400
3048100
3068300
3073500
3086100
3090900
3101900
3111400
3118300
3124700
3128900
3142200
3152100
3163000
3169500
3174900
3178100
3181900
3186800
3193600
3210300
3229700
3233900
3237600
3258900
3262200
3269400
3276100
3281000
3290400
3298500
3307200
3318100
3330000
3338500
3345100
3354900
3374900
3384500
3390200
3404100
3423600
3437000
3444100
3463500
3467100
3470300
3474900
3482100
3487500
3497500
3508300
3515300
3523900
3530500
3537000
3549200
3563300
3610500
3615500
3625700
3632100
3637700
3643600
3654400
3666200
3677600
3687100
3690300
3693200
3696400
3712500
3729300
3752000
3756000
3766000
3777800
3783200
3789200
3795300
3804700
3815800
3820100
3825000
3831800
3837700
3849100
3855500
3889900
3910800
3917200
3921100
3928000
3935100
3967100
3973700
3981800
3989100
3995800
4010800
4030900
4035800
4041900
4054200
4061500
4070600
4081800
4089600
4100400
4108300
4116000
4137200
4140900
4152000
4156700
4160300
4165600
4169300
4179700
4194100
4204400
4220400
4237200
4254700
4258400
4264300
4290500
4308300
4316600
4330600
4340600
4349300
4362700
4373800
4387400
4396200
4403400
4410000
4431000
4435400
4443600
4473000
4479300
4495500
4499900
4505100
4514100
4522100
4538000
4549800
4561500
4568500
4580700
4590500
4594100
4600100
4608700
4614000
4619400
4629500
4635100
4652900
4675400
4681600
4693300
4711100
4719800
4729600
4736900
4747500
4756700
4762300
4765600
4770000
4782000
4790300
4795200
4805600
4821400
4825900
4842900
4856100
4868000
4873000
4879300
4888400
4901600
4905500
4913800
4926200
4933200
4944700
4948600
4954700
4967800
4974900
4978600
4984000
4995300
5000800
5017900
5034100
5061300
5072900
5076800
5080200
5096700
5104200
5115600
5120200
5127900
5141000
5146900
5159200
5168100
5174900
5183800
5192700
5200000
5209800
5215400
5227600
5234400
5241200
5249100
5255600
5266800
5274000
5277800
5283100
5290300
5296300
5307800
5317600
5325100
5333400
5343600
5347400
5363800
5370800
5377400
5384500
5402200
5409600
5418100
5426200
5438300
5446300
5453800
5465600
5473300
5479600
5490900
5502200
5507800
5524800
5528700
5535700
5546200
5549300
5555700
5560400
5569300
5589300
5592300
5597900
5609400
5626300
5632400
5642300
5648000
5657900
5661600
5666500
5675300
5690000
5694100
5699200
5713300
5717500
5722800
5739800
5749100
5755900
5767000
5784100
5790000
5799400
5802900
5812400
5817200
5821600
5827600
5833400
5838300
5848000
5853300
5864200
5869800
5874600
5882800
5890600
5898600
5906200
5919000
5941000
5949900
5957200
5965600
5974100
5979300
5992800
6019200
6028500
6040800
6049100
6062700
6073800
6099500
6110100
6113900
6120500
6123800
6127800
6133900
6144400
6159100
6168000
6177400
6194800
6199400
6205000
6211300
6217900
6226000
6235900
6243700
6251700
6258300
6265300
6274900
6286200
6291400
6298600
6307800
6315700
6331100
6335500
6343500
6358100
6370300
6377300
6382700
6387600
6393100
6397800
6409900
6423900
6430800
6436500
6454400
6458200
6476200
6479800
6483300
6488600
6498700
6505300
6511500
6515500
6528200
6532200
6548600
6564600
6578900
6589100
6600700
6609200
6614500
6626400
6639200
6644800
6660600
6665200
6672900
6681900
6686500
6694300
6702100
6710600
6716800
6721800
6737600
6753800
6759000
6765500
6779900
6788700
6799900
6805800
6825600
6831600
6840600
6857500
6864600
6871800
6881100
6889100
6900100
6908200
6920500
6925400
6931800
6937100
6944100
6955400
6967400
6986300
7001600
7008600
7015000
7024300
7036900
7044100
7050600
7061000
7071500
7106900
7117700
7125600
7133100
7139900
7147200
7154200
7158900
7162700
7177800
7183300
7196900
7203800
7211300
7218800
7231000
7237300
7246300
7256500
7263400
7267800
7282700
7303900
7313300
7326500
7343400
7348800
7355000
7359900
7365600
7369100
7376800
7387300
7397300
7407700
7419800
7425600
7434700
7439600
7448200
7456600
7478100
7481400
7485200
7499800
7506700
7518200
7528900
7544400
7564500
7570300
7586400
7602400
7612100
7626800
7636300
7646700
7652000
7656800
7662300
7667800
7674100
7678400
7689700
7700400
7706900
7715000
7724500
7736000
7739800
7753900
7766500
7777500
7785800
7792000
7802000
7807900
7817900
7843900
7861700
7874400
7887000
7892800
7901600
7907200
7912600
7917500
7925000
7942600
7946700
7952600
7956600
7975100
7986400
7993000
8003000
8008000
8018800
8026000
8036200
8043200
8059700
8067300
8074600
8081800
8097700
8107800
8112200
8118100
8133000
8142500
8150800
8158400
8182200
8197700
8202700
8209200
8221200
8226900
8233600
8242700
8253300
8257800
8268000
8273000
8279700
8288600
8300100
8306000
8314400
8321000
8327100
8331400
8353500
8361300
8367300
8372600
8376900
8382800
8395200
8404500
8414500
8430100
8434700
8441500
8460000
8471800
8481600
8489200
8500100
8504900
8512000
8521900
8541600
8546000
8560400
8565100
8583000
8594400
8603700
8612200
8618800
8627900
8646900
8651900
8658800
8669700
8679700
8685700
8690400
8698800
8708000
8713200
8719100
8734300
8739000
8742600
8750300
8753900
8762200
8774900
8783100
8788700
8798700
8810900
8818800
8839200
8844100
8864600
8872500
8878200
8886400
8890800
8899900
8905600
8916400
8920700
8927500
8948300
8962300
8974200
8980900
8990600
9004900
9013000
9033400
9040000
9051800
9057300
9068700
9075200
9088600
9106100
9114300
9124800
9129200
9136000
9146200
9150100
9161600
9177800
9185400
9191600
9199700
9208300
9222300
9227600
9232500
9238600
9247900
9256000
9265300
9278300
9286000
9299000
9304300
9310100
9313300
9335800
9346600
9357500
9363100
9368800
9380700
9383600
9391700
9397100
9410400
9417300
9431100
9448600
9459200
9467500
9493300
9498000
9502600
9507300
9524900
9531500
9542600
9552800
9564400
9568700
9582500
9588000
9593600
9597500
9613200
9629900
9634000
9640000
9649400
9653900
9662400
9682700
9705000
9708600
9713300
9721400
9738400
9749800
9760900
9769300
9775300
9786700
9795000
9802300
9805800
9819500
9830600
9834600
9846000
9852900
9859400
9876800
9886800
9893900
9907600
9912600
9924700
9936700
9945900
9962400
9970100
9976200
9980600
9987700
9996100
10002100


