# repro call number: 0
# mode: 3
# signal: 2
# stimulus file: /extra/setup/oel/stimuli/receptorInfo/gauss_st6_co50.dat
# carrier freq (kHz): 3.53553
# stimulus length (msec): 1000
# pause between stimuli (msec): 700
# length of ramp (usec): 1000
# desired firing rate (Hz): 90
# standard deviation (dB): 6
# cut-off frequency (Hz): 50
# repetition number: 0
# duration (msec): 1000
# intensity (dB): 83.3333
10200
12500
14500
17400
27200
29900
33300
52700
56600
68200
71300
73600
75800
78000
95900
98500
101000
104100
144200
147000
149300
151500
153900
157000
164500
171900
186100
191300
210200
213300
229400
232300
234600
236900
239100
257800
261400
264400
271100
275200
278600
282500
294600
299100
337800
341100
343600
346200
348800
351700
354500
393800
398000
409000
413300
416500
419300
421800
444200
470200
473000
475400
477700
480300
501600
506300
515600
519500
522200
541000
543800
546600
549100
551600
555100
558000
561100
565200
585600
616600
619700
622300
625400
628900
646800
649800
652800
674400
677400
679900
684300
706500
712700
717100
720700
723600
751100
754800
757700
760600
763500
767400
806600
810500
821500
824800
827700
830400
833600
849900
854400
874200
877200
879800
887100
890200
909700
913600
954800
957600
960200
963000
981400
985300
1006200
1010300
1020500
1024300
1026900
1030300
1042300
1045900
1048700
1052100
1062100
1065100
1072300
1075100
1107800
1111400
1119500
1122900
1129400
1189500
1192800
1196000
1231500
1235400
1238700
1253900
1257400
1261600
1264500
1274300
1278000
1280800
1286300
1323800
1326800
1348200
1353500
1359100
1375300
1380000
1384300
1402300
1406500
1410000
1413000
1416000
1419500
1437400
1440400
1445000
1467300
1485000
1488000
1491100
1506500
1526300
1529300
1534300
1552000
1555500
1558500
1591200
1595800
1600000
1622800
1630200
1647000
1650500
1655800
1677400
1680400
1707400
1724100
1746100
1749100
1754100
1781700
1785200
1791600
1798700
1801800
1806600
1834600
1845500
1890500
1895700
1906100
1909000
1913500
1936500
1940500
1960800
1968000
1979800
1982900
1987400
1992100
2009100
2012500
2019000
2030700
2034500
2038600
2100700
2127900
2151300
2155000
2158100
2163000
2166200
2169900
2193900
2209600
2213800
2267500
2275000
2278500
2284300
2287700
2295800
2330200
2348400
2352000
2355200
2374100
2383000
2404000
2408700
2418400
2424500
2428200
2432100
2440000
2449200
2453200
2469700
2473200
2478900
2496600
2499800
2504000
2519800
2569100
2572500
2618500
2626100
2641800
2645100
2650000
2670700
2694600
2698400
2738300
2745900
2772500
2780500
2805700
2827700
2841900
2845800
2851400
2877000
2885300
2888800
2894300
2916900
2920800
2927200
2932600
2937800
2968800
3026500
3030100
3033500
3047500
3050800
3056600
3087000
3107500
3117900
3137000
3146700
3193600
3196900
3216700
3238100
3243000
3254100
3257700
3263200
3284800
3290500
3295300
3311100
3316200
3319900
3324000
3327600
3347800
3357900
3380600
3405700
3414100
3432700
3461400
3467400
3471300
3474900
3478900
3482800
3494100
3499100
3503700
3513400
3517300
3544900
3549800
3554300
3558500
3574300
3579800
3597500
3601000
3604600
3625700
3632700
3639200
3648600
3674900
3698900
3702800
3708900
3716800
3724500
3728800
3742200
3765300
3821400
3847900
3856900
3860500
3864400
3873200
3910000
3913700
3932400
3955800
3964300
3967900
3973600
3995900
4014500
4018200
4036700
4040500
4059700
4063800
4070000
4073500
4079000
4099600
4103500
4117100
4139700
4143800
4163900
4167800
4192000
4196600
4208400
4212000
4217400
4244600
4274100
4277500
4282500
4299600
4303600
4307700
4325100
4330100
4353900
4357800
4362300
4377400
4382000
4386800
4404800
4411000
4429700
4433200
4438100
4443300
4457800
4464200
4495400
4503300
4522500
4527200
4556800
4566900
4571500
4604700
4617700
4646800
4651300
4690600
4696300
4699900
4725300
4733800
4738800
4753200
4763500
4782200
4786300
4797900
4824000
4827700
4844800
4848300
4875200
4880700
4901400
4927900
4931900
4950800
4988900
4992800
4996800
5009000
5013200
5021000
5025400
5029400
5051000
5076900
5094900
5118100
5122400
5135100
5140600
5159500
5166000
5169800
5176400
5181000
5200800
5211100
5232500
5254500
5306100
5314600
5329600
5353800
5370900
5397600
5423100
5432100
5454100
5472800
5498700
5504400
5532200
5538200
5558900
5564300
5568800
5579900
5601200
5605100
5626900
5636800
5657600
5672800
5695100
5725600
5731800
5762200
5767100
5773800
5777400
5781600
5801600
5814900
5841600
5846900
5860400
5864400
5870300
5876400
5880600
5917700
5937800
5942200
5954100
6001800
6021600
6032200
6061800
6067200
6073500
6096900
6102300
6113700
6157600
6164700
6186500
6190800
6195100
6199200
6252200
6285500
6289400
6296600
6307400
6331000
6335100
6339400
6356300
6360100
6370300
6376500
6396000
6402800
6406800
6451000
6467200
6475500
6480800
6487500
6493200
6499200
6521100
6524700
6529900
6549900
6558200
6568000
6571700
6576600
6584400
6588200
6594000
6651700
6657800
6691800
6719600
6730600
6734800
6762900
6768800
6778700
6794000
6797600
6819200
6836600
6842000
6874500
6897700
6920200
6929100
6950600
6954500
6960300
7015100
7039200
7078200
7082800
7088400
7093300
7099200
7113700
7122500
7142200
7147900
7152300
7168500
7178700
7182500
7186200
7207500
7212800
7218900
7225400
7229200
7265000
7281700
7306900
7312300
7338200
7361200
7380000
7405100
7423800
7452700
7466800
7481500
7486800
7504700
7508800
7514900
7519700
7528000
7536900
7541000
7546800
7582700
7603500
7614200
7677400
7719000
7743300
7747900
7769700
7785500
7792100
7805200
7809000
7827200
7830800
7852500
7856800
7877400
7880900
7896400
7941900
7960500
7971500
7988700
8054900
8062200
8067000
8071300
8074800
8097900
8121900
8155700
8160600
8166200
8185800
8190100
8194600
8198500
8203000
8223100
8227400
8241700
8264000
8267600
8286200
8289800
8295600
8301400
8305200
8311200
8314700
8339600
8345300
8350400
8380300
8383900
8389600
8404800
8409300
8469200
8473100
8501600
8507100
8516200
8525100
8528500
8534400
8565400
8581100
8585500
8591000
8628000
8645800
8655900
8660900
8689400
8730500
8734100
8747000
8784900
8790900
8825200
8828800
8853700
8878500
8918200
8924100
8929200
8941400
8985900
8993600
9019800
9023800
9029700
9035600
9081600
9085100
9091000
9110300
9126900
9130700
9140700
9144400
9167900
9192900
9196200
9206000
9213900
9220900
9229100
9234500
9253200
9257200
9272400
9280500
9287000
9293500
9316300
9320100
9325800
9333600
9352200
9355600
9360500
9385100
9388600
9431200
9436600
9440400
9446100
9462700
9466100
9489900
9498000
9506700
9510300
9597200
9601900
9605300
9609000
9633300
9652700
9691000
9701000
9711800
9716000
9739100
9742400
9749300
9763100
9766700
9770400
9794300
9824700
9835400
9839000
9843200
9867400
9877900
9888300
9913200
9935500
9939800
9960000
9968600
9985200


